participant, trial, stimulus, response, rt
24, 1, O, f, 0.505
24, 2, Q, NIL, NIL
24, 3, O, f, 0.388
24, 4, O, f, 0.387
24, 5, O, f, 0.385
24, 6, O, f, 0.383
24, 7, O, f, 0.385
24, 8, O, f, 0.388
24, 9, O, f, 0.383
24, 10, O, f, 0.384
24, 11, O, f, 0.382
24, 12, O, f, 0.384
24, 13, O, f, 0.389
24, 14, O, f, 0.387
24, 15, O, f, 0.384
24, 16, O, f, 0.385
24, 17, O, f, 0.387
24, 18, O, f, 0.386
24, 19, O, f, 0.386
24, 20, O, f, 0.389
24, 21, O, f, 0.385
24, 22, O, f, 0.387
24, 23, O, f, 0.384
24, 24, O, f, 0.386
24, 25, O, f, 0.384
24, 26, O, f, 0.383
24, 27, O, f, 0.386
24, 28, Q, NIL, NIL
24, 29, Q, NIL, NIL
24, 30, O, f, 0.391
24, 31, O, f, 0.385
24, 32, O, f, 0.385
24, 33, O, f, 0.387
24, 34, O, f, 0.385
24, 35, O, f, 0.387
24, 36, O, f, 0.384
24, 37, O, f, 0.387
24, 38, O, f, 0.39
24, 39, Q, NIL, NIL
24, 40, O, f, 0.384
24, 41, O, f, 0.385
24, 42, O, f, 0.386
24, 43, O, f, 0.383
24, 44, O, f, 0.385
24, 45, O, f, 0.387
24, 46, Q, NIL, NIL
24, 47, O, f, 0.387
24, 48, O, f, 0.385
24, 49, O, f, 0.385
24, 50, Q, NIL, NIL
24, 51, O, f, 0.387
24, 52, O, f, 0.385
24, 53, O, f, 0.385
24, 54, O, f, 0.384
24, 55, O, f, 0.387
24, 56, O, f, 0.383
24, 57, O, f, 0.385
24, 58, O, f, 0.385
24, 59, O, f, 0.384
24, 60, O, f, 0.391
24, 61, O, f, 0.385
24, 62, O, f, 0.386
24, 63, O, f, 0.383
24, 64, O, f, 0.388
24, 65, O, f, 0.385
24, 66, O, f, 0.386
24, 67, O, f, 0.384
24, 68, O, f, 0.386
24, 69, O, f, 0.385
24, 70, O, f, 0.385
24, 71, O, f, 0.383
24, 72, O, f, 0.385
24, 73, O, f, 0.389
24, 74, O, f, 0.387
24, 75, O, f, 0.384
24, 76, O, f, 0.385
24, 77, O, f, 0.386
24, 78, O, f, 0.382
24, 79, O, f, 0.384
24, 80, Q, NIL, NIL
24, 81, O, f, 0.384
24, 82, O, f, 0.386
24, 83, O, f, 0.383
24, 84, O, f, 0.383
24, 85, O, f, 0.386
24, 86, O, f, 0.385
24, 87, O, f, 0.387
24, 88, O, f, 0.384
24, 89, Q, NIL, NIL
24, 90, O, f, 0.384
24, 91, O, f, 0.384
24, 92, O, f, 0.384
24, 93, O, f, 0.385
24, 94, O, f, 0.391
24, 95, O, f, 0.385
24, 96, O, f, 0.387
24, 97, O, f, 0.389
24, 98, O, f, 0.383
24, 99, O, f, 0.384
24, 100, O, f, 0.39
24, 101, O, f, 0.385
24, 102, O, f, 0.39
24, 103, O, f, 0.388
24, 104, O, f, 0.382
24, 105, O, f, 0.384
24, 106, O, f, 0.384
24, 107, O, f, 0.393
24, 108, O, f, 0.386
24, 109, O, f, 0.388
24, 110, O, f, 0.384
24, 111, O, f, 0.386
24, 112, O, f, 0.383
24, 113, O, f, 0.388
24, 114, O, f, 0.384
24, 115, O, f, 0.384
24, 116, O, f, 0.385
24, 117, O, f, 0.386
24, 118, O, f, 0.382
24, 119, Q, NIL, NIL
24, 120, O, f, 0.385
24, 121, Q, NIL, NIL
24, 122, O, f, 0.389
24, 123, O, f, 0.388
24, 124, O, f, 0.385
24, 125, O, f, 0.385
24, 126, O, f, 0.385
24, 127, Q, NIL, NIL
24, 128, O, f, 0.386
24, 129, O, f, 0.394
24, 130, Q, NIL, NIL
24, 131, O, f, 0.385
24, 132, O, f, 0.384
24, 133, O, f, 0.385
24, 134, O, f, 0.384
24, 135, O, f, 0.385
24, 136, O, f, 0.385
24, 137, O, f, 0.384
24, 138, Q, NIL, NIL
24, 139, O, f, 0.383
24, 140, O, f, 0.388
24, 141, Q, NIL, NIL
24, 142, O, f, 0.387
24, 143, O, f, 0.388
24, 144, O, f, 0.383
24, 145, O, f, 0.384
24, 146, O, f, 0.386
24, 147, O, f, 0.385
24, 148, O, f, 0.385
24, 149, O, f, 0.385
24, 150, O, f, 0.388
24, 151, O, f, 0.386
24, 152, O, f, 0.385
24, 153, O, f, 0.385
24, 154, O, f, 0.384
24, 155, O, f, 0.389
24, 156, O, f, 0.388
24, 157, O, f, 0.386
24, 158, O, f, 0.385
24, 159, O, f, 0.386
24, 160, O, f, 0.384
24, 161, Q, NIL, NIL
24, 162, O, f, 0.384
24, 163, O, f, 0.386
24, 164, O, f, 0.385
24, 165, O, f, 0.384
24, 166, O, f, 0.386
24, 167, O, f, 0.384
24, 168, O, f, 0.384
24, 169, O, f, 0.387
24, 170, O, f, 0.386
24, 171, O, f, 0.384
24, 172, O, f, 0.385
24, 173, O, f, 0.386
24, 174, O, f, 0.385
24, 175, O, f, 0.385
24, 176, Q, NIL, NIL
24, 177, O, f, 0.386
24, 178, O, f, 0.385
24, 179, O, f, 0.385
24, 180, O, f, 0.386
24, 181, O, f, 0.386
24, 182, Q, NIL, NIL
24, 183, O, f, 0.385
24, 184, O, f, 0.385
24, 185, O, f, 0.385
24, 186, O, f, 0.384
24, 187, O, f, 0.386
24, 188, O, f, 0.384
24, 189, Q, NIL, NIL
24, 190, O, f, 0.388
24, 191, O, f, 0.384
24, 192, Q, NIL, NIL
24, 193, O, f, 0.383
24, 194, O, f, 0.384
24, 195, O, f, 0.384
24, 196, O, f, 0.384
24, 197, Q, NIL, NIL
24, 198, O, f, 0.387
24, 199, O, f, 0.386
24, 200, O, f, 0.383
