participant, trial, stimulus, response, rt
9, 1, O, f, 0.502
9, 2, O, f, 0.384
9, 3, Q, NIL, NIL
9, 4, O, f, 0.385
9, 5, O, f, 0.389
9, 6, O, f, 0.385
9, 7, O, f, 0.386
9, 8, O, f, 0.386
9, 9, O, f, 0.387
9, 10, O, f, 0.383
9, 11, O, f, 0.387
9, 12, O, f, 0.384
9, 13, O, f, 0.384
9, 14, O, f, 0.384
9, 15, O, f, 0.385
9, 16, O, f, 0.385
9, 17, O, f, 0.385
9, 18, O, f, 0.385
9, 19, O, f, 0.384
9, 20, O, f, 0.383
9, 21, O, f, 0.386
9, 22, O, f, 0.385
9, 23, O, f, 0.39
9, 24, O, f, 0.386
9, 25, O, f, 0.383
9, 26, O, f, 0.384
9, 27, O, f, 0.386
9, 28, O, f, 0.384
9, 29, O, f, 0.384
9, 30, O, f, 0.383
9, 31, Q, NIL, NIL
9, 32, O, f, 0.385
9, 33, O, f, 0.382
9, 34, O, f, 0.388
9, 35, O, f, 0.386
9, 36, O, f, 0.386
9, 37, O, f, 0.386
9, 38, O, f, 0.384
9, 39, O, f, 0.386
9, 40, Q, NIL, NIL
9, 41, O, f, 0.386
9, 42, O, f, 0.386
9, 43, O, f, 0.384
9, 44, O, f, 0.385
9, 45, O, f, 0.387
9, 46, O, f, 0.383
9, 47, O, f, 0.385
9, 48, O, f, 0.384
9, 49, O, f, 0.39
9, 50, O, f, 0.382
9, 51, O, f, 0.383
9, 52, O, f, 0.384
9, 53, O, f, 0.385
9, 54, O, f, 0.386
9, 55, O, f, 0.387
9, 56, O, f, 0.384
9, 57, O, f, 0.385
9, 58, O, f, 0.387
9, 59, O, f, 0.387
9, 60, O, f, 0.386
9, 61, O, f, 0.383
9, 62, O, f, 0.385
9, 63, O, f, 0.386
9, 64, O, f, 0.383
9, 65, O, f, 0.387
9, 66, O, f, 0.386
9, 67, O, f, 0.39
9, 68, O, f, 0.384
9, 69, O, f, 0.386
9, 70, O, f, 0.383
9, 71, O, f, 0.385
9, 72, O, f, 0.385
9, 73, Q, NIL, NIL
9, 74, O, f, 0.388
9, 75, O, f, 0.388
9, 76, O, f, 0.387
9, 77, O, f, 0.386
9, 78, O, f, 0.389
9, 79, O, f, 0.387
9, 80, O, f, 0.386
9, 81, O, f, 0.386
9, 82, O, f, 0.385
9, 83, O, f, 0.387
9, 84, O, f, 0.388
9, 85, O, f, 0.386
9, 86, O, f, 0.383
9, 87, Q, NIL, NIL
9, 88, O, f, 0.384
9, 89, O, f, 0.383
9, 90, Q, NIL, NIL
9, 91, O, f, 0.384
9, 92, O, f, 0.384
9, 93, O, f, 0.385
9, 94, O, f, 0.386
9, 95, O, f, 0.385
9, 96, O, f, 0.384
9, 97, O, f, 0.388
9, 98, Q, NIL, NIL
9, 99, O, f, 0.386
9, 100, O, f, 0.386
9, 101, O, f, 0.383
9, 102, O, f, 0.384
9, 103, O, f, 0.385
9, 104, O, f, 0.385
9, 105, O, f, 0.386
9, 106, O, f, 0.385
9, 107, O, f, 0.386
9, 108, O, f, 0.385
9, 109, O, f, 0.385
9, 110, O, f, 0.382
9, 111, O, f, 0.383
9, 112, O, f, 0.385
9, 113, Q, NIL, NIL
9, 114, O, f, 0.388
9, 115, O, f, 0.383
9, 116, O, f, 0.386
9, 117, O, f, 0.384
9, 118, O, f, 0.385
9, 119, O, f, 0.383
9, 120, O, f, 0.386
9, 121, O, f, 0.382
9, 122, O, f, 0.388
9, 123, O, f, 0.387
9, 124, O, f, 0.384
9, 125, O, f, 0.383
9, 126, O, f, 0.385
9, 127, O, f, 0.385
9, 128, O, f, 0.387
9, 129, O, f, 0.384
9, 130, O, f, 0.384
9, 131, O, f, 0.392
9, 132, O, f, 0.385
9, 133, O, f, 0.384
9, 134, O, f, 0.388
9, 135, Q, NIL, NIL
9, 136, O, f, 0.384
9, 137, O, f, 0.382
9, 138, O, f, 0.386
9, 139, Q, NIL, NIL
9, 140, Q, NIL, NIL
9, 141, O, f, 0.384
9, 142, Q, NIL, NIL
9, 143, O, f, 0.391
9, 144, O, f, 0.386
9, 145, O, f, 0.383
9, 146, Q, NIL, NIL
9, 147, O, f, 0.387
9, 148, Q, NIL, NIL
9, 149, O, f, 0.382
9, 150, Q, NIL, NIL
9, 151, O, f, 0.383
9, 152, O, f, 0.383
9, 153, O, f, 0.384
9, 154, O, f, 0.384
9, 155, O, f, 0.386
9, 156, O, f, 0.388
9, 157, O, f, 0.384
9, 158, O, f, 0.386
9, 159, O, f, 0.388
9, 160, O, f, 0.384
9, 161, O, f, 0.387
9, 162, O, f, 0.385
9, 163, Q, NIL, NIL
9, 164, O, f, 0.391
9, 165, O, f, 0.386
9, 166, O, f, 0.387
9, 167, O, f, 0.385
9, 168, O, f, 0.383
9, 169, O, f, 0.389
9, 170, O, f, 0.386
9, 171, O, f, 0.389
9, 172, Q, NIL, NIL
9, 173, O, f, 0.387
9, 174, O, f, 0.385
9, 175, O, f, 0.384
9, 176, O, f, 0.383
9, 177, O, f, 0.391
9, 178, O, f, 0.384
9, 179, O, f, 0.384
9, 180, O, f, 0.383
9, 181, Q, NIL, NIL
9, 182, O, f, 0.385
9, 183, O, f, 0.386
9, 184, O, f, 0.384
9, 185, O, f, 0.382
9, 186, Q, NIL, NIL
9, 187, O, f, 0.384
9, 188, O, f, 0.385
9, 189, O, f, 0.386
9, 190, O, f, 0.384
9, 191, O, f, 0.384
9, 192, O, f, 0.387
9, 193, O, f, 0.384
9, 194, O, f, 0.385
9, 195, O, f, 0.385
9, 196, O, f, 0.385
9, 197, Q, NIL, NIL
9, 198, O, f, 0.387
9, 199, O, f, 0.383
9, 200, O, f, 0.385
