participant, trial, stimulus, response, rt
17, 1, O, f, 0.508
17, 2, O, f, 0.384
17, 3, O, f, 0.11
17, 4, O, f, 0.11
17, 5, O, f, 0.383
17, 6, Q, NIL, NIL
17, 7, O, f, 0.11
17, 8, O, f, 0.386
17, 9, O, f, 0.383
17, 10, O, f, 0.11
17, 11, O, f, 0.386
17, 12, O, f, 0.383
17, 13, O, f, 0.384
17, 14, Q, f, 0.11
17, 15, O, f, 0.385
17, 16, O, f, 0.11
17, 17, O, f, 0.388
17, 18, O, f, 0.11
17, 19, O, f, 0.11
17, 20, O, f, 0.11
17, 21, O, f, 0.388
17, 22, O, f, 0.387
17, 23, O, f, 0.11
17, 24, Q, NIL, NIL
17, 25, O, f, 0.388
17, 26, O, f, 0.11
17, 27, O, f, 0.11
17, 28, O, f, 0.11
17, 29, O, f, 0.383
17, 30, O, f, 0.383
17, 31, O, f, 0.11
17, 32, O, f, 0.11
17, 33, O, f, 0.386
17, 34, O, f, 0.385
17, 35, O, f, 0.11
17, 36, O, f, 0.11
17, 37, O, f, 0.384
17, 38, O, f, 0.386
17, 39, O, f, 0.384
17, 40, O, f, 0.382
17, 41, Q, f, 0.11
17, 42, O, f, 0.397
17, 43, O, f, 0.385
17, 44, Q, f, 0.11
17, 45, O, f, 0.11
17, 46, O, f, 0.11
17, 47, Q, f, 0.11
17, 48, O, f, 0.385
17, 49, O, f, 0.383
17, 50, O, f, 0.11
17, 51, O, f, 0.386
17, 52, O, f, 0.384
17, 53, O, f, 0.387
17, 54, O, f, 0.11
17, 55, O, f, 0.384
17, 56, O, f, 0.39
17, 57, Q, f, 0.11
17, 58, O, f, 0.11
17, 59, O, f, 0.11
17, 60, O, f, 0.39
17, 61, O, f, 0.11
17, 62, O, f, 0.385
17, 63, O, f, 0.384
17, 64, O, f, 0.384
17, 65, O, f, 0.385
17, 66, O, f, 0.11
17, 67, O, f, 0.11
17, 68, O, f, 0.11
17, 69, O, f, 0.386
17, 70, Q, f, 0.11
17, 71, O, f, 0.383
17, 72, O, f, 0.385
17, 73, O, f, 0.385
17, 74, O, f, 0.389
17, 75, O, f, 0.384
17, 76, O, f, 0.11
17, 77, O, f, 0.384
17, 78, O, f, 0.386
17, 79, O, f, 0.385
17, 80, O, f, 0.384
17, 81, Q, NIL, NIL
17, 82, O, f, 0.11
17, 83, O, f, 0.11
17, 84, O, f, 0.383
17, 85, O, f, 0.385
17, 86, O, f, 0.386
17, 87, O, f, 0.385
17, 88, Q, f, 0.11
17, 89, O, f, 0.388
17, 90, O, f, 0.385
17, 91, O, f, 0.385
17, 92, O, f, 0.384
17, 93, O, f, 0.385
17, 94, Q, f, 0.11
17, 95, O, f, 0.11
17, 96, O, f, 0.11
17, 97, O, f, 0.11
17, 98, O, f, 0.11
17, 99, O, f, 0.11
17, 100, O, f, 0.382
17, 101, O, f, 0.386
17, 102, O, f, 0.391
17, 103, O, f, 0.385
17, 104, Q, NIL, NIL
17, 105, O, f, 0.389
17, 106, O, f, 0.385
17, 107, O, f, 0.11
17, 108, O, f, 0.11
17, 109, O, f, 0.386
17, 110, O, f, 0.11
17, 111, O, f, 0.11
17, 112, O, f, 0.385
17, 113, O, f, 0.11
17, 114, O, f, 0.386
17, 115, O, f, 0.385
17, 116, O, f, 0.11
17, 117, O, f, 0.389
17, 118, O, f, 0.11
17, 119, O, f, 0.389
17, 120, O, f, 0.385
17, 121, O, f, 0.11
17, 122, O, f, 0.385
17, 123, O, f, 0.11
17, 124, O, f, 0.385
17, 125, O, f, 0.11
17, 126, O, f, 0.384
17, 127, O, f, 0.11
17, 128, O, f, 0.387
17, 129, O, f, 0.11
17, 130, O, f, 0.11
17, 131, O, f, 0.387
17, 132, O, f, 0.385
17, 133, O, f, 0.385
17, 134, O, f, 0.11
17, 135, Q, NIL, NIL
17, 136, O, f, 0.11
17, 137, O, f, 0.11
17, 138, O, f, 0.387
17, 139, O, f, 0.11
17, 140, O, f, 0.11
17, 141, O, f, 0.11
17, 142, O, f, 0.385
17, 143, O, f, 0.11
17, 144, O, f, 0.386
17, 145, O, f, 0.11
17, 146, O, f, 0.11
17, 147, O, f, 0.385
17, 148, O, f, 0.382
17, 149, O, f, 0.11
17, 150, O, f, 0.11
17, 151, O, f, 0.11
17, 152, O, f, 0.11
17, 153, O, f, 0.386
17, 154, O, f, 0.11
17, 155, O, f, 0.11
17, 156, O, f, 0.384
17, 157, Q, NIL, NIL
17, 158, O, f, 0.387
17, 159, O, f, 0.385
17, 160, O, f, 0.11
17, 161, O, f, 0.385
17, 162, Q, NIL, NIL
17, 163, O, f, 0.386
17, 164, O, f, 0.383
17, 165, O, f, 0.385
17, 166, O, f, 0.11
17, 167, O, f, 0.389
17, 168, Q, f, 0.11
17, 169, O, f, 0.11
17, 170, O, f, 0.11
17, 171, O, f, 0.387
17, 172, O, f, 0.11
17, 173, O, f, 0.387
17, 174, O, f, 0.11
17, 175, O, f, 0.11
17, 176, Q, f, 0.11
17, 177, O, f, 0.11
17, 178, O, f, 0.386
17, 179, O, f, 0.11
17, 180, O, f, 0.11
17, 181, Q, NIL, NIL
17, 182, Q, NIL, NIL
17, 183, O, f, 0.11
17, 184, O, f, 0.11
17, 185, O, f, 0.11
17, 186, O, f, 0.383
17, 187, O, f, 0.384
17, 188, O, f, 0.11
17, 189, O, f, 0.383
17, 190, O, f, 0.11
17, 191, O, f, 0.11
17, 192, O, f, 0.11
17, 193, O, f, 0.385
17, 194, O, f, 0.386
17, 195, O, f, 0.11
17, 196, O, f, 0.383
17, 197, Q, NIL, NIL
17, 198, O, f, 0.11
17, 199, O, f, 0.385
17, 200, O, f, 0.384
