participant, trial, stimulus, response, rt
19, 1, O, f, 0.505
19, 2, O, f, 0.11
19, 3, O, f, 0.399
19, 4, O, f, 0.11
19, 5, O, f, 0.11
19, 6, O, f, 0.11
19, 7, O, f, 0.385
19, 8, O, f, 0.386
19, 9, O, f, 0.386
19, 10, O, f, 0.11
19, 11, O, f, 0.382
19, 12, O, f, 0.384
19, 13, O, f, 0.384
19, 14, O, f, 0.11
19, 15, O, f, 0.11
19, 16, O, f, 0.385
19, 17, O, f, 0.11
19, 18, O, f, 0.11
19, 19, Q, f, 0.11
19, 20, O, f, 0.11
19, 21, O, f, 0.385
19, 22, O, f, 0.11
19, 23, O, f, 0.11
19, 24, O, f, 0.11
19, 25, O, f, 0.384
19, 26, O, f, 0.384
19, 27, O, f, 0.11
19, 28, O, f, 0.11
19, 29, O, f, 0.395
19, 30, Q, NIL, NIL
19, 31, O, f, 0.385
19, 32, O, f, 0.11
19, 33, O, f, 0.11
19, 34, O, f, 0.11
19, 35, O, f, 0.11
19, 36, O, f, 0.394
19, 37, O, f, 0.11
19, 38, O, f, 0.11
19, 39, O, f, 0.388
19, 40, Q, NIL, NIL
19, 41, O, f, 0.11
19, 42, O, f, 0.383
19, 43, O, f, 0.384
19, 44, O, f, 0.11
19, 45, O, f, 0.11
19, 46, O, f, 0.11
19, 47, O, f, 0.384
19, 48, O, f, 0.11
19, 49, O, f, 0.383
19, 50, O, f, 0.11
19, 51, O, f, 0.385
19, 52, O, f, 0.388
19, 53, O, f, 0.11
19, 54, O, f, 0.382
19, 55, O, f, 0.386
19, 56, O, f, 0.11
19, 57, O, f, 0.387
19, 58, O, f, 0.11
19, 59, Q, f, 0.11
19, 60, O, f, 0.11
19, 61, O, f, 0.385
19, 62, O, f, 0.11
19, 63, O, f, 0.385
19, 64, O, f, 0.384
19, 65, Q, f, 0.11
19, 66, Q, NIL, NIL
19, 67, O, f, 0.11
19, 68, O, f, 0.389
19, 69, O, f, 0.11
19, 70, O, f, 0.384
19, 71, O, f, 0.11
19, 72, O, f, 0.11
19, 73, O, f, 0.11
19, 74, O, f, 0.385
19, 75, O, f, 0.11
19, 76, O, f, 0.11
19, 77, O, f, 0.11
19, 78, O, f, 0.384
19, 79, O, f, 0.11
19, 80, O, f, 0.11
19, 81, O, f, 0.385
19, 82, Q, NIL, NIL
19, 83, O, f, 0.11
19, 84, Q, f, 0.11
19, 85, Q, NIL, NIL
19, 86, O, f, 0.11
19, 87, O, f, 0.387
19, 88, O, f, 0.11
19, 89, O, f, 0.11
19, 90, O, f, 0.384
19, 91, O, f, 0.11
19, 92, O, f, 0.385
19, 93, O, f, 0.389
19, 94, O, f, 0.11
19, 95, O, f, 0.11
19, 96, O, f, 0.11
19, 97, O, f, 0.386
19, 98, O, f, 0.389
19, 99, O, f, 0.11
19, 100, O, f, 0.387
19, 101, O, f, 0.11
19, 102, O, f, 0.387
19, 103, O, f, 0.384
19, 104, O, f, 0.11
19, 105, Q, f, 0.11
19, 106, O, f, 0.11
19, 107, O, f, 0.11
19, 108, O, f, 0.11
19, 109, Q, NIL, NIL
19, 110, O, f, 0.385
19, 111, Q, NIL, NIL
19, 112, Q, f, 0.11
19, 113, O, f, 0.11
19, 114, O, f, 0.11
19, 115, O, f, 0.383
19, 116, O, f, 0.11
19, 117, O, f, 0.387
19, 118, O, f, 0.389
19, 119, O, f, 0.384
19, 120, O, f, 0.11
19, 121, O, f, 0.11
19, 122, O, f, 0.11
19, 123, Q, NIL, NIL
19, 124, Q, NIL, NIL
19, 125, O, f, 0.384
19, 126, O, f, 0.385
19, 127, O, f, 0.11
19, 128, Q, NIL, NIL
19, 129, O, f, 0.11
19, 130, O, f, 0.11
19, 131, O, f, 0.386
19, 132, O, f, 0.388
19, 133, O, f, 0.11
19, 134, O, f, 0.11
19, 135, O, f, 0.11
19, 136, O, f, 0.383
19, 137, O, f, 0.11
19, 138, O, f, 0.11
19, 139, Q, f, 0.11
19, 140, O, f, 0.11
19, 141, O, f, 0.386
19, 142, O, f, 0.11
19, 143, O, f, 0.387
19, 144, O, f, 0.383
19, 145, O, f, 0.11
19, 146, O, f, 0.11
19, 147, O, f, 0.384
19, 148, O, f, 0.11
19, 149, O, f, 0.11
19, 150, O, f, 0.387
19, 151, O, f, 0.11
19, 152, O, f, 0.11
19, 153, O, f, 0.386
19, 154, O, f, 0.386
19, 155, O, f, 0.11
19, 156, O, f, 0.383
19, 157, O, f, 0.383
19, 158, O, f, 0.383
19, 159, Q, f, 0.11
19, 160, O, f, 0.384
19, 161, O, f, 0.11
19, 162, O, f, 0.11
19, 163, O, f, 0.386
19, 164, O, f, 0.11
19, 165, Q, NIL, NIL
19, 166, O, f, 0.11
19, 167, O, f, 0.384
19, 168, O, f, 0.384
19, 169, O, f, 0.11
19, 170, Q, f, 0.11
19, 171, O, f, 0.383
19, 172, O, f, 0.385
19, 173, O, f, 0.386
19, 174, O, f, 0.388
19, 175, O, f, 0.383
19, 176, O, f, 0.387
19, 177, O, f, 0.11
19, 178, O, f, 0.384
19, 179, O, f, 0.11
19, 180, O, f, 0.11
19, 181, O, f, 0.11
19, 182, O, f, 0.386
19, 183, O, f, 0.389
19, 184, O, f, 0.384
19, 185, O, f, 0.384
19, 186, O, f, 0.382
19, 187, O, f, 0.385
19, 188, O, f, 0.386
19, 189, O, f, 0.11
19, 190, O, f, 0.385
19, 191, O, f, 0.387
19, 192, O, f, 0.11
19, 193, O, f, 0.385
19, 194, O, f, 0.385
19, 195, O, f, 0.11
19, 196, O, f, 0.385
19, 197, O, f, 0.386
19, 198, O, f, 0.385
19, 199, O, f, 0.383
19, 200, O, f, 0.386
